Folder: MATLAB/Ellipsometry/Intensity Comparisons

Note: Ellipsometry/Intensity Comparisons/CSVnewHfO2 m_1.txt
Angstroms, e1, e2, n, k, Absorption 
2500, 5.228284e+00, 1.564445e-01, 2.286800e+00, 3.420600e-02, 1.335946e-03 
2600, 5.376876e+00, 1.703286e-01, 2.319100e+00, 3.672300e-02, 1.398522e-03 
2700, 5.253966e+00, 1.541960e-01, 2.292400e+00, 3.363200e-02, 1.219279e-03 
2800, 5.143330e+00, 1.007672e-01, 2.268000e+00, 2.221500e-02, 7.685164e-04 
2900, 4.987414e+00, 6.548035e-02, 2.233300e+00, 1.466000e-02, 4.822442e-04 
3000, 4.893557e+00, 7.294065e-02, 2.212200e+00, 1.648600e-02, 5.192714e-04 
3100, 4.820801e+00, 7.574725e-02, 2.195700e+00, 1.724900e-02, 5.218559e-04 
3200, 4.784377e+00, 8.089443e-02, 2.187400e+00, 1.849100e-02, 5.398961e-04 
3300, 4.765213e+00, 7.262405e-02, 2.183000e+00, 1.663400e-02, 4.700275e-04 
3400, 4.745257e+00, 5.668197e-02, 2.178400e+00, 1.301000e-02, 3.560799e-04 
3500, 4.722237e+00, 4.889040e-02, 2.173100e+00, 1.124900e-02, 2.983662e-04 
3600, 4.727444e+00, 5.071772e-02, 2.174300e+00, 1.166300e-02, 3.009197e-04 
3700, 4.718452e+00, 0, 2.172200e+00, 0, 0 
3800, 4.664736e+00, 0, 2.159800e+00, 0, 0 
3900, 4.613904e+00, 0, 2.148000e+00, 0, 0 
4000, 4.577889e+00, 0, 2.139600e+00, 0, 0 
4100, 4.549263e+00, 0, 2.132900e+00, 0, 0 
4200, 4.505855e+00, 0, 2.122700e+00, 0, 0 
4300, 4.479149e+00, 0, 2.116400e+00, 0, 0 
4400, 4.456321e+00, 0, 2.111000e+00, 0, 0 
4500, 4.434393e+00, 0, 2.105800e+00, 0, 0 
4600, 4.412520e+00, 0, 2.100600e+00, 0, 0 
4700, 4.391539e+00, 0, 2.095600e+00, 0, 0 
4800, 4.372282e+00, 0, 2.091000e+00, 0, 0 
4900, 4.355152e+00, 0, 2.086900e+00, 0, 0 
5000, 4.338056e+00, 0, 2.082800e+00, 0, 0 
5100, 4.320578e+00, 0, 2.078600e+00, 0, 0 
5200, 4.306040e+00, 0, 2.075100e+00, 0, 0 
5300, 4.292355e+00, 0, 2.071800e+00, 0, 0 
5400, 4.281589e+00, 0, 2.069200e+00, 0, 0 
5500, 4.266703e+00, 0, 2.065600e+00, 0, 0 
5600, 4.256382e+00, 0, 2.063100e+00, 0, 0 
5700, 4.246073e+00, 0, 2.060600e+00, 0, 0 
5800, 4.235775e+00, 0, 2.058100e+00, 0, 0 
5900, 4.223025e+00, 0, 2.055000e+00, 0, 0 
6000, 4.213988e+00, 0, 2.052800e+00, 0, 0 
6100, 4.208242e+00, 0, 2.051400e+00, 0, 0 
6200, 4.198811e+00, 0, 2.049100e+00, 0, 0 
6300, 4.191847e+00, 0, 2.047400e+00, 0, 0 
6400, 4.185707e+00, 0, 2.045900e+00, 0, 0 
6500, 4.183661e+00, 0, 2.045400e+00, 0, 0 
6600, 4.173032e+00, 0, 2.042800e+00, 0, 0 
6700, 4.168539e+00, 0, 2.041700e+00, 0, 0 
6800, 4.165680e+00, 0, 2.041000e+00, 0, 0 
6900, 4.160376e+00, 0, 2.039700e+00, 0, 0 
7000, 4.162008e+00, 0, 2.040100e+00, 0, 0 
7100, 4.159968e+00, 0, 2.039600e+00, 0, 0 
7200, 4.144075e+00, 0, 2.035700e+00, 0, 0 
7300, 4.143667e+00, 0, 2.035600e+00, 0, 0 
7400, 4.148147e+00, 0, 2.036700e+00, 0, 0 
7500, 4.137563e+00, 0, 2.034100e+00, 0, 0 
7600, 4.137156e+00, 0, 2.034000e+00, 0, 0 
7700, 4.139597e+00, 0, 2.034600e+00, 0, 0 
7800, 4.119682e+00, 0, 2.029700e+00, 0, 0 
7900, 4.142039e+00, 0, 2.035200e+00, 0, 0 
8000, 4.129837e+00, 0, 2.032200e+00, 0, 0 
8100, 4.132683e+00, 0, 2.032900e+00, 0, 0 
8200, 4.128617e+00, 0, 2.031900e+00, 0, 0 
8300, 4.123337e+00, 0, 2.030600e+00, 0, 0 
8400, 4.122930e+00, 0, 2.03050

Note: Ellipsometry/Intensity Comparisons/CSVnewSi3N4 Palik.txt
Angstroms, e1, e2, n, k, Absorption 
2500, 5.158844e+00, 1.972526e-02, 2.271313e+00, 4.342260e-03, 1.685408e-04 
2600, 5.006763e+00, 6.729574e-03, 2.237580e+00, 1.503762e-03, 5.529184e-05 
2700, 4.892322e+00, 2.650492e-03, 2.211860e+00, 5.991547e-04, 2.097090e-05 
2800, 4.794102e+00, 7.019423e-04, 2.189544e+00, 1.602942e-04, 5.355512e-06 
2900, 4.710621e+00, 1.052909e-04, 2.170397e+00, 2.425614e-05, 7.756244e-07 
3000, 4.645305e+00, 0, 2.155297e+00, 0, 0 
3100, 4.583881e+00, 0, 2.141000e+00, 0, 0 
3200, 4.543669e+00, 0, 2.131588e+00, 0, 0 
3300, 4.503458e+00, 0, 2.122135e+00, 0, 0 
3400, 4.463246e+00, 0, 2.112640e+00, 0, 0 
3500, 4.423034e+00, 0, 2.103101e+00, 0, 0 
3600, 4.392500e+00, 0, 2.095829e+00, 0, 0 
3700, 4.369223e+00, 0, 2.090269e+00, 0, 0 
3800, 4.345946e+00, 0, 2.084693e+00, 0, 0 
3900, 4.322669e+00, 0, 2.079103e+00, 0, 0 
4000, 4.299392e+00, 0, 2.073497e+00, 0, 0 
4100, 4.276115e+00, 0, 2.067877e+00, 0, 0 
4200, 4.260076e+00, 0, 2.063995e+00, 0, 0 
4300, 4.247655e+00, 0, 2.060984e+00, 0, 0 
4400, 4.235235e+00, 0, 2.057969e+00, 0, 0 
4500, 4.222814e+00, 0, 2.054949e+00, 0, 0 
4600, 4.210394e+00, 0, 2.051924e+00, 0, 0 
4700, 4.197973e+00, 0, 2.048896e+00, 0, 0 
4800, 4.185553e+00, 0, 2.045862e+00, 0, 0 
4900, 4.173133e+00, 0, 2.042825e+00, 0, 0 
5000, 4.163190e+00, 0, 2.040390e+00, 0, 0 
5100, 4.156965e+00, 0, 2.038864e+00, 0, 0 
5200, 4.150739e+00, 0, 2.037336e+00, 0, 0 
5300, 4.144514e+00, 0, 2.035808e+00, 0, 0 
5400, 4.138288e+00, 0, 2.034278e+00, 0, 0 
5500, 4.132063e+00, 0, 2.032748e+00, 0, 0 
5600, 4.125837e+00, 0, 2.031216e+00, 0, 0 
5700, 4.119612e+00, 0, 2.029683e+00, 0, 0 
5800, 4.113386e+00, 0, 2.028148e+00, 0, 0 
5900, 4.107161e+00, 0, 2.026613e+00, 0, 0 
6000, 4.100935e+00, 0, 2.025077e+00, 0, 0 
6100, 4.094710e+00, 0, 2.023539e+00, 0, 0 
6200, 4.088484e+00, 0, 2.022000e+00, 0, 0 
6300, 4.085754e+00, 0, 2.021325e+00, 0, 0 
6400, 4.083024e+00, 0, 2.020649e+00, 0, 0 
6500, 4.080294e+00, 0, 2.019974e+00, 0, 0 
6600, 4.077564e+00, 0, 2.019298e+00, 0, 0 
6700, 4.074834e+00, 0, 2.018622e+00, 0, 0 
6800, 4.072104e+00, 0, 2.017946e+00, 0, 0 
6900, 4.069374e+00, 0, 2.017269e+00, 0, 0 
7000, 4.066644e+00, 0, 2.016592e+00, 0, 0 
7100, 4.063914e+00, 0, 2.015915e+00, 0, 0 
7200, 4.061184e+00, 0, 2.015238e+00, 0, 0 
7300, 4.058454e+00, 0, 2.014560e+00, 0, 0 
7400, 4.055724e+00, 0, 2.013883e+00, 0, 0 
7500, 4.052994e+00, 0, 2.013205e+00, 0, 0 
7600, 4.050264e+00, 0, 2.012527e+00, 0, 0 
7700, 4.047534e+00, 0, 2.011848e+00, 0, 0 
7800, 4.044804e+00, 0, 2.011170e+00, 0, 0 
7900, 4.042074e+00, 0, 2.010491e+00, 0, 0 
8000, 4.039344e+00, 0, 2.009812e+00, 0, 0 
8100, 4.036614e+00, 0, 2.009133e+00, 0, 0 
8200, 4.033883e+00, 0, 2.008453e+00, 0, 0 
8300, 4.031740e+00, 0, 2.007919e+00, 0, 0 
8400, 4.030771e+00, 0, 2.007678e+00, 0, 0 
8500, 4.029802e+00, 0, 2.007437e+00, 0, 0 
8600, 4.028833e+00, 0, 2.007195e+00, 0, 0 
8700, 4.027864e+00, 0, 2.006954e+00, 0, 0 
8800, 4.026895e+00, 0, 2.006712e+00, 0, 0 
8900, 4.025925e+00, 0, 2.006471e+00, 0, 0 
900

File: CSVnewCopper Palik.txt
Angstroms, e1, e2, n, k, Absorption
2500, -9.251114e-01, 5.233084e+00, 1.481404e+00, 1.766258e+00, 4.373231e-02
2600, -5.673082e-01, 5.208952e+00, 1.528471e+00, 1.703975e+00, 4.189625e-02
2700, -4.781340e-01, 5.069093e+00, 1.518792e+00, 1.668791e+00, 3.931381e-02
2800, -4.708171e-01, 4.914946e+00, 1.494428e+00, 1.644424e+00, 3.680461e-02
2900, -5.941523e-01, 4.746698e+00, 1.447340e+00, 1.639801e+00, 3.436226e-02
3000, -8.330695e-01, 4.641927e+00, 1.393381e+00, 1.665707e+00, 3.251455e-02
3100, -1.164737e+00, 4.611071e+00, 1.339993e+00, 1.720558e+00, 3.127642e-02
3200, -1.358456e+00, 4.758144e+00, 1.339741e+00, 1.775771e+00, 3.126562e-02
3300, -1.541887e+00, 4.860735e+00, 1.333705e+00, 1.822267e+00, 3.097646e-02
3400, -1.707799e+00, 4.887586e+00, 1.317111e+00, 1.855419e+00, 3.024286e-02
3500, -1.894131e+00, 4.914259e+00, 1.298562e+00, 1.892193e+00, 2.954961e-02
3600, -2.096507e+00, 4.940794e+00, 1.278806e+00, 1.931800e+00, 2.889362e-02
3700, -2.497993e+00, 5.015195e+00, 1.245969e+00, 2.012568e+00, 2.854120e-02
3800, -3.069089e+00, 5.130370e+00, 1.206069e+00, 2.126897e+00, 2.842994e-02
3900, -3.491700e+00, 5.215600e+00, 1.180000e+00, 2.210000e+00, 2.816498e-02
4000, -3.491700e+00, 5.215600e+00, 1.180000e+00, 2.210000e+00, 2.747062e-02
4100, -3.491700e+00, 5.215600e+00, 1.180000e+00, 2.210000e+00, 2.680967e-02
4200, -3.652727e+00, 5.285280e+00, 1.177276e+00, 2.244706e+00, 2.652485e-02
4300, -3.893066e+00, 5.389280e+00, 1.173726e+00, 2.295800e+00, 2.641922e-02
4400, -4.133405e+00, 5.493279e+00, 1.170741e+00, 2.346069e+00, 2.631838e-02
4500, -4.354610e+00, 5.570597e+00, 1.165342e+00, 2.390112e+00, 2.609866e-02
4600, -4.568375e+00, 5.637538e+00, 1.159264e+00, 2.431516e+00, 2.584150e-02
4700, -4.782140e+00, 5.704480e+00, 1.153613e+00, 2.472441e+00, 2.559522e-02
4800, -4.973980e+00, 5.755950e+00, 1.147464e+00, 2.508118e+00, 2.529203e-02
4900, -5.119231e+00, 5.774543e+00, 1.139683e+00, 2.533399e+00, 2.486136e-02
5000, -5.264482e+00, 5.793136e+00, 1.132114e+00, 2.558547e+00, 2.444775e-02
5100, -5.409733e+00, 5.811729e+00, 1.124751e+00, 2.583563e+00, 2.405018e-02
5200, -5.523950e+00, 5.757700e+00, 1.107947e+00, 2.598364e+00, 2.337643e-02
5300, -5.577923e+00, 5.562700e+00, 1.072309e+00, 2.593795e+00, 2.217220e-02
5400, -5.644916e+00, 5.342628e+00, 1.031356e+00, 2.590099e+00, 2.091406e-02
5500, -5.829090e+00, 4.896914e+00, 9.444387e-01, 2.592500e+00, 1.884061e-02
5600, -6.013263e+00, 4.451200e+00, 8.568007e-01, 2.597570e+00, 1.683704e-02
5700, -6.464184e+00, 3.892867e+00, 7.354188e-01, 2.646701e+00, 1.448402e-02
5800, -7.058739e+00, 3.273893e+00, 6.009470e-01, 2.723945e+00, 1.198614e-02
5900, -7.653293e+00, 2.654919e+00, 4.729778e-01, 2.806600e+00, 9.566923e-03
6000, -8.570865e+00, 2.347822e+00, 3.973374e-01, 2.954444e+00, 8.324513e-03
6100, -9.501895e+00, 2.053721e+00, 3.312177e-01, 3.100258e+00, 7.166539e-03
6200, -1.043282e+01, 1.761972e+00, 2.717916e-01, 3.241402e+00, 6.052690e-03
6300, -1.135290e+01, 1.703137e+00, 2.520314e-01, 3.378820e+00, 5.758567e-03
6400, -1.227299e+01, 1.644303e+00, 2.341578e-01, 3.511100e+00, 5.473554e-03
6500, -1.319308e+01, 1.585469e+00, 2.178586e-01, 3.638756e+00, 5.197231e-03
6600, -1.402915e+01, 1.608489e+00, 2.143691e-01, 3.751680e+00, 5.192815e-03
6700, -1.483721e+01, 1.658794e+00, 2.149863e-01, 3.857905e+00, 5.275072e-03
6800, -1.568129e+01, 1.695862e+00, 2.138147e-01, 3.965729e+00, 5.313540e-03
6900, -1.651151e+01, 1.734067e+00, 2.130817e-01, 4.069019e+00, 5.354392e-03
7000, -1.728341e+01, 1.777900e+00, 2.135455e-01, 4.162813e+00, 5.411160e-03
7100, -1.805761e+01, 1.827050e+00, 2.147023e-01, 4.254845e+00, 5.482235e-03
7200, -1.884391e+01, 1.904112e+00, 2.190407e-01, 4.346480e+00, 5.633685e-03
7300, -1.963296e+01, 1.981249e+00, 2.232880e-01, 4.436532e+00, 5.781182e-03
7400, -2.045856e+01, 2.059379e+00, 2.273635e-01, 4.528825e+00, 5.927519e-03
7500, -2.128416e+01, 2.137508e+00, 2.313684e-01, 4.619274e+00, 6.069933e-03
7600, -2.210976e+01, 2.215638e+00, 2.353063e-01, 4.707986e+00, 6.208580e-03
7700, -2.293536e+01, 2.293768e+00, 2.391804e-01, 4.795057e+00, 6.343608e-03
7800, -2.376096e+01, 2.371897e+00, 2.429936e-01, 4.880575e+00, 6.475155e-03
7900, -2.458656e+01, 2.450027e+00, 2.467487e-01, 4.964620e+00, 6.603355e-03
8000, -2.541216e+01, 2.528156e+00, 2.504481e-01, 5.047265e+00, 6.728335e-03
8100, -2.623776e+01, 2.606286e+00, 2.540944e-01, 5.128579e+00, 6.850213e-03
8200, -2.706336e+01, 2.684416e+00, 2.576895e-01, 5.208624e+00, 6.969104e-03
8300, -2.797060e+01, 2.774061e+00, 2.619407e-01, 5.295207e+00, 7.114546e-03
8400, -2.902947e+01, 2.885093e+00, 2.674090e-01, 5.394532e+00, 7.310498e-03
8500, -3.008834e+01, 2.996124e+00, 2.727686e-01, 5.492062e+00, 7.501802e-03
8600, -3.114720e+01, 3.107156e+00, 2.780259e-01, 5.587889e+00, 7.688621e-03
8700, -3.220607e+01, 3.218188e+00, 2.831865e-01, 5.682100e+00, 7.871112e-03
8800, -3.326494e+01, 3.329220e+00, 2.882553e-01, 5.774775e+00, 8.049423e-03
8900, -3.432380e+01, 3.440251e+00, 2.932373e-01, 5.865986e+00, 8.223695e-03
9000, -3.538267e+01, 3.551283e+00, 2.981365e-01, 5.955800e+00, 8.394066e-03
9100, -3.644153e+01, 3.662314e+00, 3.029571e-01, 6.044280e+00, 8.560664e-03
9200, -3.750040e+01, 3.773346e+00, 3.077026e-01, 6.131483e+00, 8.723613e-03
9300, -3.855927e+01, 3.884378e+00, 3.123764e-01, 6.217463e+00, 8.883032e-03
9400, -3.961813e+01, 3.995410e+00, 3.169818e-01, 6.302270e+00, 9.039034e-03
9500, -4.067700e+01, 4.106441e+00, 3.215215e-01, 6.385951e+00, 9.191728e-03
9600, -4.173586e+01, 4.217473e+00, 3.259983e-01, 6.468550e+00, 9.341218e-03
9700, -4.279473e+01, 4.328505e+00, 3.304148e-01, 6.550107e+00, 9.487604e-03
9800, -4.385359e+01, 4.439536e+00, 3.347733e-01, 6.630661e+00, 9.630981e-03
9900, -4.491246e+01, 4.550568e+00, 3.390760e-01, 6.710248e+00, 9.771442e-03
10000, -4.597133e+01, 4.661600e+00, 3.433250e-01, 6.788903e+00, 9.909075e-03

File: CSVnewSiO2 Herzinger.txt
Angstroms, e1, e2, n, k, Absorption
2500, 2.290758e+00, 0, 1.513525e+00, 0, 0
2600, 2.275310e+00, 0, 1.508413e+00, 0, 0
2700, 2.261933e+00, 0, 1.503972e+00, 0, 0
2800, 2.250262e+00, 0, 1.500087e+00, 0, 0
2900, 2.240005e+00, 0, 1.496665e+00, 0, 0
3000, 2.230932e+00, 0, 1.493630e+00, 0, 0
3100, 2.222863e+00, 0, 1.490927e+00, 0, 0
3200, 2.215649e+00, 0, 1.488506e+00, 0, 0
3300, 2.209168e+00, 0, 1.486327e+00, 0, 0
3400, 2.203321e+00, 0, 1.484359e+00, 0, 0
3500, 2.198021e+00, 0, 1.482572e+00, 0, 0
3600, 2.193203e+00, 0, 1.480947e+00, 0, 0
3700, 2.188806e+00, 0, 1.479461e+00, 0, 0
3800, 2.184777e+00, 0, 1.478099e+00, 0, 0
3900, 2.181079e+00, 0, 1.476848e+00, 0, 0
4000, 2.177673e+00, 0, 1.475694e+00, 0, 0
4100, 2.174528e+00, 0, 1.474628e+00, 0, 0
4200, 2.171613e+00, 0, 1.473639e+00, 0, 0
4300, 2.168908e+00, 0, 1.472721e+00, 0, 0
4400, 2.166391e+00, 0, 1.471867e+00, 0, 0
4500, 2.164044e+00, 0, 1.471069e+00, 0, 0
4600, 2.161852e+00, 0, 1.470324e+00, 0, 0
4700, 2.159797e+00, 0, 1.469625e+00, 0, 0
4800, 2.157869e+00, 0, 1.468969e+00, 0, 0
4900, 2.156058e+00, 0, 1.468352e+00, 0, 0
5000, 2.154352e+00, 0, 1.467771e+00, 0, 0
5100, 2.152741e+00, 0, 1.467222e+00, 0, 0
5200, 2.151220e+00, 0, 1.466704e+00, 0, 0
5300, 2.149777e+00, 0, 1.466212e+00, 0, 0
5400, 2.148413e+00, 0, 1.465746e+00, 0, 0
5500, 2.147115e+00, 0, 1.465304e+00, 0, 0
5600, 2.145881e+00, 0, 1.464883e+00, 0, 0
5700, 2.144706e+00, 0, 1.464482e+00, 0, 0
5800, 2.143586e+00, 0, 1.464099e+00, 0, 0
5900, 2.142515e+00, 0, 1.463733e+00, 0, 0
6000, 2.141490e+00, 0, 1.463383e+00, 0, 0
6100, 2.140511e+00, 0, 1.463048e+00, 0, 0
6200, 2.139570e+00, 0, 1.462727e+00, 0, 0
6300, 2.138667e+00, 0, 1.462418e+00, 0, 0
6400, 2.137798e+00, 0, 1.462121e+00, 0, 0
6500, 2.136962e+00, 0, 1.461835e+00, 0, 0
6600, 2.136156e+00, 0, 1.461560e+00, 0, 0
6700, 2.135380e+00, 0, 1.461294e+00, 0, 0
6800, 2.134630e+00, 0, 1.461037e+00, 0, 0
6900, 2.133904e+00, 0, 1.460789e+00, 0, 0
7000, 2.133199e+00, 0, 1.460547e+00, 0, 0
7100, 2.132518e+00, 0, 1.460314e+00, 0, 0
7200, 2.131859e+00, 0, 1.460089e+00, 0, 0
7300, 2.131215e+00, 0, 1.459868e+00, 0, 0
7400, 2.130593e+00, 0, 1.459655e+00, 0, 0
7500, 2.129986e+00, 0, 1.459447e+00, 0, 0
7600, 2.129395e+00, 0, 1.459245e+00, 0, 0
7700, 2.128817e+00, 0, 1.459047e+00, 0, 0
7800, 2.128254e+00, 0, 1.458854e+00, 0, 0
7900, 2.127705e+00, 0, 1.458665e+00, 0, 0
8000, 2.127170e+00, 0, 1.458482e+00, 0, 0
8100, 2.126642e+00, 0, 1.458301e+00, 0, 0
8200, 2.126129e+00, 0, 1.458125e+00, 0, 0
8300, 2.125624e+00, 0, 1.457952e+00, 0, 0
8400, 2.125130e+00, 0, 1.457783e+00, 0, 0
8500, 2.124644e+00, 0, 1.457616e+00, 0, 0
8600, 2.124167e+00, 0, 1.457452e+00, 0, 0
8700, 2.123698e+00, 0, 1.457291e+00, 0, 0
8800, 2.123237e+00, 0, 1.457133e+00, 0, 0
8900, 2.122782e+00, 0, 1.456977e+00, 0, 0
9000, 2.122334e+00, 0, 1.456823e+00, 0, 0
9100, 2.121893e+00, 0, 1.456672e+00, 0, 0
9200, 2.121457e+00, 0, 1.456522e+00, 0, 0
9300, 2.121029e+00, 0, 1.456375e+00, 0, 0
9400, 2.120604e+00, 0, 1.456229e+00, 0, 0
9500, 2.120183e+00, 0, 1.456085e+00, 0, 0
9600, 2.119769e+00, 0, 1.455943e+00, 0, 0
9700, 2.119358e+00, 0, 1.455801e+00, 0, 0
9800, 2.118952e+00, 0, 1.455662e+00, 0, 0
9900, 2.118549e+00, 0, 1.455524e+00, 0, 0
10000, 2.118149e+00, 0, 1.455386e+00, 0, 0

File: HfO2 m_1.txt
Hafnium dioxide, from m_1.dat (250nm to 1000nm)
ANGSTROMS
E1E2
2500	5.22828	0.156445
2600	5.37688	0.170329
2700	5.25397	0.154196
2800	5.14333	0.100767
2900	4.98741	0.0654804
3000	4.89356	0.0729407
3100	4.8208	0.0757473
3200	4.78438	0.0808944
3300	4.76521	0.072624
3400	4.74526	0.056682
3500	4.72224	0.0488904
3600	4.72744	0.0507177
3700	4.71845	0.0000000
3800	4.66474	0.0000000
3900	4.6139	0.0000000
4000	4.57789	0.0000000
4100	4.54926	0.0000000
4200	4.50586	0.0000000
4300	4.47915	0.0000000
4400	4.45632	0.0000000
4500	4.43439	0.0000000
4600	4.41252	0.0000000
4700	4.39154	0.0000000
4800	4.37228	0.0000000
4900	4.35515	0.0000000
5000	4.33806	0.0000000
5100	4.32058	0.0000000
5200	4.30604	0.0000000
5300	4.29236	0.0000000
5400	4.28159	0.0000000
5500	4.2667	0.0000000
5600	4.25638	0.0000000
5700	4.24607	0.0000000
5800	4.23578	0.0000000
5900	4.22303	0.0000000
6000	4.21399	0.0000000
6100	4.20824	0.0000000
6200	4.19881	0.0000000
6300	4.19185	0.0000000
6400	4.18571	0.0000000
6500	4.18366	0.0000000
6600	4.17303	0.0000000
6700	4.16854	0.0000000
6800	4.16568	0.0000000
6900	4.16038	0.0000000
7000	4.16201	0.0000000
7100	4.15997	0.0000000
7200	4.14407	0.0000000
7300	4.14367	0.0000000
7400	4.14815	0.0000000
7500	4.13756	0.0000000
7600	4.13716	0.0000000
7700	4.1396	0.0000000
7800	4.11968	0.0000000
7900	4.14204	0.0000000
8000	4.12984	0.0000000
8100	4.13268	0.0000000
8200	4.12862	0.0000000
8300	4.12334	0.0000000
8400	4.12293	0.0000000
8500	4.11928	0.0000000
8600	4.09415	0.0000000
8700	4.1063	0.0000000
8800	4.11522	0.0000000
8900	4.10063	0.0000000
9000	4.10346	0.0000000
9100	4.10184	0.0000000
9200	4.09779	0.0000000
9300	4.09698	0.0000000
9400	4.09334	0.0000000
9500	4.09698	0.0000000
9600	4.09941	0.0000000
9700	4.09658	0.0000000
9800	4.08768	0.0000000
9900	4.09779	0.0000000
10000	4.07636	0.0000000